trials.thisRepN,trials.thisTrialN,trials.thisN,trials.thisIndex,num_distr,fixation.started,target.started,mouse.started,mouse.x,mouse.y,mouse.leftButton,mouse.midButton,mouse.rightButton,mouse.time,mouse.clicked_name,participant,session,date,expName,psychopyVersion,frameRate
0,0,0,0,5,13.1083224,13.1083224,0.023179,[0.23981481481481481],[0.3425925925925926],[1],[0],[0],[1.3567380999993475],['target'],298441,1,2023-09-28_15h58.46.010,psychopy project 3,2023.1.3,60.00124803
1,0,1,0,10,14.4797595,14.4797595,0.0189332,[0.3],[0.1824074074074074],[1],[0],[0],[1.158862299998873],['target'],298441,1,2023-09-28_15h58.46.010,psychopy project 3,2023.1.3,60.00124803
2,0,2,0,10,15.6625573,15.6625573,0.0233432,[-0.4537037037037037],[-0.4722222222222222],[1],[0],[0],[3.10940059999848],[],298441,1,2023-09-28_15h58.46.010,psychopy project 3,2023.1.3,60.00124803
3,0,3,0,5,18.7823278,18.7823278,0.0103987,[-0.43148148148148147],[-0.11851851851851852],[1],[0],[0],[1.2033783999995649],['target'],298441,1,2023-09-28_15h58.46.010,psychopy project 3,2023.1.3,60.00124803
4,0,4,0,10,20.0203955,20.0203955,0.0273727,[-0.0787037037037037],[-0.37407407407407406],[1],[0],[0],[1.9384774999998626],['target'],298441,1,2023-09-28_15h58.46.010,psychopy project 3,2023.1.3,60.00124803
5,0,5,0,10,21.9934258,21.9934258,0.0298528,[-0.2796296296296296],[0.19074074074074074],[1],[0],[0],[2.6970194000004994],['target'],298441,1,2023-09-28_15h58.46.010,psychopy project 3,2023.1.3,60.00124803
6,0,6,0,10,24.7126896,24.7126896,0.0199414,[-0.22685185185185186],[0.025],[1],[0],[0],[1.679081700000097],['target'],298441,1,2023-09-28_15h58.46.010,psychopy project 3,2023.1.3,60.00124803
7,0,7,0,5,26.4040115,26.4040115,0.0111283,[-0.09814814814814815],[0.3592592592592593],[1],[0],[0],[1.384125700000368],['target'],298441,1,2023-09-28_15h58.46.010,psychopy project 3,2023.1.3,60.00124803
8,0,8,0,10,27.8128185,27.8128185,0.0191772,[0.32685185185185184],[-0.04537037037037037],[1],[0],[0],[1.6783875999990414],['target'],298441,1,2023-09-28_15h58.46.010,psychopy project 3,2023.1.3,60.00124803
9,0,9,0,5,29.5013801,29.5013801,0.0094929,[0.32685185185185184],[-0.04537037037037037],[1],[0],[0],[0.1222447000000102],[],298441,1,2023-09-28_15h58.46.010,psychopy project 3,2023.1.3,60.00124803
10,0,10,0,10,29.647543,29.647543,0.0187625,[-0.34074074074074073],[-0.007407407407407408],[1],[0],[0],[1.711351800000557],['target'],298441,1,2023-09-28_15h58.46.010,psychopy project 3,2023.1.3,60.00124803
11,0,11,0,10,31.3833502,31.3833502,0.0200649,[0.1425925925925926],[0.2351851851851852],[1],[0],[0],[1.3771289000014804],['target'],298441,1,2023-09-28_15h58.46.010,psychopy project 3,2023.1.3,60.00124803
12,0,12,0,10,32.7833887,32.7833887,0.0216894,[0.3175925925925926],[0.2833333333333333],[1],[0],[0],[1.07640739999988],['target'],298441,1,2023-09-28_15h58.46.010,psychopy project 3,2023.1.3,60.00124803
13,0,13,0,10,33.8804474,33.8804474,0.0184371,[-0.030555555555555555],[0.17962962962962964],[1],[0],[0],[1.0966024999997899],['target'],298441,1,2023-09-28_15h58.46.010,psychopy project 3,2023.1.3,60.00124803
14,0,14,0,5,34.9881894,34.9881894,0.0094978,[-0.4666666666666667],[-0.30092592592592593],[1],[0],[0],[2.171824800001559],['target'],298441,1,2023-09-28_15h58.46.010,psychopy project 3,2023.1.3,60.00124803
15,0,15,0,10,37.1835423,37.1835423,0.0189342,[-0.4361111111111111],[0.1],[1],[0],[0],[1.4111436000002868],['target'],298441,1,2023-09-28_15h58.46.010,psychopy project 3,2023.1.3,60.00124803
16,0,16,0,5,38.6045959,38.6045959,0.0093569,[0.06111111111111111],[0.36018518518518516],[1],[0],[0],[1.3728066999992734],['target'],298441,1,2023-09-28_15h58.46.010,psychopy project 3,2023.1.3,60.00124803
17,0,17,0,5,39.9908486,39.9908486,0.0099817,[0.4009259259259259],[0.10833333333333334],[1],[0],[0],[1.253719700000147],['target'],298441,1,2023-09-28_15h58.46.010,psychopy project 3,2023.1.3,60.00124803
18,0,18,0,10,41.2738257,41.2738257,0.0209572,[0.2935185185185185],[-0.32314814814814813],[1],[0],[0],[1.8070793999995658],['target'],298441,1,2023-09-28_15h58.46.010,psychopy project 3,2023.1.3,60.00124803
19,0,19,0,10,43.1006066,43.1006066,0.0185897,[0.30092592592592593],[0.13240740740740742],[1],[0],[0],[1.1457157999993797],['target'],298441,1,2023-09-28_15h58.46.010,psychopy project 3,2023.1.3,60.00124803
20,0,20,0,5,44.2617125,44.2617125,0.0134319,[-0.43425925925925923],[0.0712962962962963],[1],[0],[0],[1.5005323000004864],['target'],298441,1,2023-09-28_15h58.46.010,psychopy project 3,2023.1.3,60.00124803
21,0,21,0,10,45.7851483,45.7851483,0.0186945,[-0.4064814814814815],[-0.07962962962962963],[1],[0],[0],[0.9964787999997498],['target'],298441,1,2023-09-28_15h58.46.010,psychopy project 3,2023.1.3,60.00124803
22,0,22,0,5,46.798565,46.798565,0.015121,[-0.009259259259259259],[0.4],[1],[0],[0],[1.5657131999996636],['target'],298441,1,2023-09-28_15h58.46.010,psychopy project 3,2023.1.3,60.00124803
23,0,23,0,10,48.3853807,48.3853807,0.0179516,[0.4361111111111111],[-0.05277777777777778],[1],[0],[0],[1.5465207999986887],['target'],298441,1,2023-09-28_15h58.46.010,psychopy project 3,2023.1.3,60.00124803
24,0,24,0,5,49.9427101,49.9427101,0.0094567,[0.4861111111111111],[-0.004629629629629629],[1],[0],[0],[1.4556025000001682],['target'],298441,1,2023-09-28_15h58.46.010,psychopy project 3,2023.1.3,60.00124803
25,0,25,0,5,51.4113029,51.4113029,0.0096323,[-0.010185185185185186],[0.17037037037037037],[1],[0],[0],[1.3716010999996797],['target'],298441,1,2023-09-28_15h58.46.010,psychopy project 3,2023.1.3,60.00124803
26,0,26,0,10,52.8058934,52.8058934,0.0185341,[-0.30092592592592593],[0.43703703703703706],[1],[0],[0],[1.7943270000014309],['target'],298441,1,2023-09-28_15h58.46.010,psychopy project 3,2023.1.3,60.00124803
27,0,27,0,10,54.6226079,54.6226079,0.018681,[-0.07592592592592592],[-0.262037037037037],[1],[0],[0],[1.4796031999994739],['target'],298441,1,2023-09-28_15h58.46.010,psychopy project 3,2023.1.3,60.00124803
28,0,28,0,5,56.1142629,56.1142629,0.0110863,[-0.4777777777777778],[-0.12037037037037036],[1],[0],[0],[1.8520467999987886],['target'],298441,1,2023-09-28_15h58.46.010,psychopy project 3,2023.1.3,60.00124803
29,0,29,0,10,57.9916883,57.9916883,0.0192524,[-0.26481481481481484],[-0.1787037037037037],[1],[0],[0],[1.4943523000001733],['target'],298441,1,2023-09-28_15h58.46.010,psychopy project 3,2023.1.3,60.00124803
30,0,30,0,10,59.5560919,59.5560919,0.0664582,[0.13703703703703704],[-0.3314814814814815],[1],[0],[0],[1.530175899999449],['target'],298441,1,2023-09-28_15h58.46.010,psychopy project 3,2023.1.3,60.00124803
31,0,31,0,10,61.1071806,61.1071806,0.0186453,[0.33611111111111114],[0.2574074074074074],[1],[0],[0],[1.3794261000002734],['target'],298441,1,2023-09-28_15h58.46.010,psychopy project 3,2023.1.3,60.00124803
32,0,32,0,10,62.5080656,62.5080656,0.0184594,[0.44166666666666665],[0.3638888888888889],[1],[0],[0],[1.3292282999991585],['target'],298441,1,2023-09-28_15h58.46.010,psychopy project 3,2023.1.3,60.00124803
33,0,33,0,5,63.8470666,63.8470666,0.0092892,[-0.33796296296296297],[-0.3111111111111111],[1],[0],[0],[1.7234475999994174],['target'],298441,1,2023-09-28_15h58.46.010,psychopy project 3,2023.1.3,60.00124803
34,0,34,0,5,65.583983,65.583983,0.0102243,[0.06851851851851852],[0.09907407407407408],[1],[0],[0],[1.286270799999329],['target'],298441,1,2023-09-28_15h58.46.010,psychopy project 3,2023.1.3,60.00124803
35,0,35,0,5,66.8830826,66.8830826,0.0091278,[-0.010185185185185186],[0.13333333333333333],[1],[0],[0],[1.755199100000027],['target'],298441,1,2023-09-28_15h58.46.010,psychopy project 3,2023.1.3,60.00124803
36,0,36,0,5,68.6505299,68.6505299,0.0099134,[-0.16944444444444445],[-0.13333333333333333],[1],[0],[0],[1.3044296000007307],[],298441,1,2023-09-28_15h58.46.010,psychopy project 3,2023.1.3,60.00124803
37,0,37,0,10,69.987261,69.987261,0.0236162,[-0.3351851851851852],[0.34629629629629627],[1],[0],[0],[1.488611699998728],['target'],298441,1,2023-09-28_15h58.46.010,psychopy project 3,2023.1.3,60.00124803
38,0,38,0,10,71.4952691,71.4952691,0.0191701,[-0.09907407407407408],[-0.2564814814814815],[1],[0],[0],[1.3787393999991764],['target'],298441,1,2023-09-28_15h58.46.010,psychopy project 3,2023.1.3,60.00124803
39,0,39,0,10,72.8951183,72.8951183,0.0183736,[0.1361111111111111],[0.2574074074074074],[1],[0],[0],[1.3293152999995073],['target'],298441,1,2023-09-28_15h58.46.010,psychopy project 3,2023.1.3,60.00124803
40,0,40,0,5,74.2341562,74.2341562,0.009408,[0.46574074074074073],[0.009259259259259259],[1],[0],[0],[1.4056624000004376],['target'],298441,1,2023-09-28_15h58.46.010,psychopy project 3,2023.1.3,60.00124803
41,0,41,0,10,75.663376,75.663376,0.0185999,[0.387037037037037],[0.1648148148148148],[1],[0],[0],[1.162276999999449],['target'],298441,1,2023-09-28_15h58.46.010,psychopy project 3,2023.1.3,60.00124803
42,0,42,0,5,76.8354087,76.8354087,0.0093679,[0.25277777777777777],[0.018518518518518517],[1],[0],[0],[1.4731147000002238],['target'],298441,1,2023-09-28_15h58.46.010,psychopy project 3,2023.1.3,60.00124803
43,0,43,0,5,78.3234322,78.3234322,0.0109418,[0.42962962962962964],[0.30185185185185187],[1],[0],[0],[1.3678826000013942],['target'],298441,1,2023-09-28_15h58.46.010,psychopy project 3,2023.1.3,60.00124803
44,0,44,0,5,79.7045305,79.7045305,0.0097179,[0.037037037037037035],[-0.04537037037037037],[1],[0],[0],[1.3039029000010487],[],298441,1,2023-09-28_15h58.46.010,psychopy project 3,2023.1.3,60.00124803
45,0,45,0,10,81.0319067,81.0319067,0.0183497,[-0.3675925925925926],[0.30648148148148147],[1],[0],[0],[1.595677399998749],['target'],298441,1,2023-09-28_15h58.46.010,psychopy project 3,2023.1.3,60.00124803
46,0,46,0,10,82.648992,82.648992,0.0181807,[-0.18796296296296297],[0.16574074074074074],[1],[0],[0],[1.413875199999893],['target'],298441,1,2023-09-28_15h58.46.010,psychopy project 3,2023.1.3,60.00124803
47,0,47,0,5,84.0720311,84.0720311,0.0095356,[0.42962962962962964],[-0.09259259259259259],[1],[0],[0],[1.7555720999989717],['target'],298441,1,2023-09-28_15h58.46.010,psychopy project 3,2023.1.3,60.00124803
48,0,48,0,5,85.8397888,85.8397888,0.0098094,[-0.47129629629629627],[0.17962962962962964],[1],[0],[0],[1.304393099999288],['target'],298441,1,2023-09-28_15h58.46.010,psychopy project 3,2023.1.3,60.00124803
49,0,49,0,5,87.1564517,87.1564517,0.0094423,[-0.1824074074074074],[-0.2722222222222222],[1],[0],[0],[1.3561065000012604],['target'],298441,1,2023-09-28_15h58.46.010,psychopy project 3,2023.1.3,60.00124803
50,0,50,0,5,88.5254282,88.5254282,0.0100744,[-0.49722222222222223],[-0.1685185185185185],[1],[0],[0],[1.3201415999992605],['target'],298441,1,2023-09-28_15h58.46.010,psychopy project 3,2023.1.3,60.00124803
51,0,51,0,10,89.8691862,89.8691862,0.0192149,[0.1425925925925926],[0.07962962962962963],[1],[0],[0],[1.5786563999990904],['target'],298441,1,2023-09-28_15h58.46.010,psychopy project 3,2023.1.3,60.00124803
52,0,52,0,5,91.4583586,91.4583586,0.0095913,[-0.5074074074074074],[0.4203703703703704],[1],[0],[0],[2.0057554000013624],['target'],298441,1,2023-09-28_15h58.46.010,psychopy project 3,2023.1.3,60.00124803
53,0,53,0,5,93.476985,93.476985,0.0100639,[0.49537037037037035],[-0.43333333333333335],[1],[0],[0],[2.004574099999445],['target'],298441,1,2023-09-28_15h58.46.010,psychopy project 3,2023.1.3,60.00124803
54,0,54,0,5,95.4966063,95.4966063,0.0114766,[0.25555555555555554],[0.08425925925925926],[1],[0],[0],[1.501036000001477],['target'],298441,1,2023-09-28_15h58.46.010,psychopy project 3,2023.1.3,60.00124803
55,0,55,0,10,97.0237257,97.0237257,0.0196846,[-0.42407407407407405],[0.1814814814814815],[1],[0],[0],[1.477406300000439],['target'],298441,1,2023-09-28_15h58.46.010,psychopy project 3,2023.1.3,60.00124803
56,0,56,0,10,98.5212134,98.5212134,0.0185581,[0.18981481481481483],[-0.16203703703703703],[1],[0],[0],[1.496612400000231],['target'],298441,1,2023-09-28_15h58.46.010,psychopy project 3,2023.1.3,60.00124803
57,0,57,0,10,100.0390989,100.0390989,0.0187651,[-0.12314814814814815],[-0.21944444444444444],[1],[0],[0],[2.046183200000087],['target'],298441,1,2023-09-28_15h58.46.010,psychopy project 3,2023.1.3,60.00124803
58,0,58,0,10,102.1058732,102.1058732,0.018368,[0.4685185185185185],[0.20925925925925926],[1],[0],[0],[1.5296949999992648],['target'],298441,1,2023-09-28_15h58.46.010,psychopy project 3,2023.1.3,60.00124803
59,0,59,0,5,103.6468507,103.6468507,0.0097792,[-0.17222222222222222],[0.2222222222222222],[1],[0],[0],[1.604888400001073],['target'],298441,1,2023-09-28_15h58.46.010,psychopy project 3,2023.1.3,60.00124803
60,0,60,0,10,105.2753052,105.2753052,0.0185103,[0.3527777777777778],[-0.04722222222222222],[1],[0],[0],[1.4452791000003344],['target'],298441,1,2023-09-28_15h58.46.010,psychopy project 3,2023.1.3,60.00124803
61,0,61,0,10,106.740727,106.740727,0.0179872,[-0.07962962962962963],[0.03981481481481482],[1],[0],[0],[1.3801168000009056],['target'],298441,1,2023-09-28_15h58.46.010,psychopy project 3,2023.1.3,60.00124803
62,0,62,0,10,108.1420657,108.1420657,0.0186217,[0.43148148148148147],[-0.14629629629629629],[1],[0],[0],[1.6629472999993595],['target'],298441,1,2023-09-28_15h58.46.010,psychopy project 3,2023.1.3,60.00124803
63,0,63,0,10,109.8266778,109.8266778,0.018612,[0.11388888888888889],[0.2962962962962963],[1],[0],[0],[1.3628120000012132],['target'],298441,1,2023-09-28_15h58.46.010,psychopy project 3,2023.1.3,60.00124803
64,0,64,0,10,111.2159778,111.2159778,0.022178,[-0.4361111111111111],[-0.35462962962962963],[1],[0],[0],[1.9731795999996393],['target'],298441,1,2023-09-28_15h58.46.010,psychopy project 3,2023.1.3,60.00124803
65,0,65,0,10,113.2096859,113.2096859,0.0183288,[0.26481481481481484],[0.06388888888888888],[1],[0],[0],[1.580689299998994],['target'],298441,1,2023-09-28_15h58.46.010,psychopy project 3,2023.1.3,60.00124803
66,0,66,0,5,114.801691,114.801691,0.0100197,[-0.3888888888888889],[-0.43703703703703706],[1],[0],[0],[1.7035852999997587],['target'],298441,1,2023-09-28_15h58.46.010,psychopy project 3,2023.1.3,60.00124803
67,0,67,0,10,116.5299685,116.5299685,0.0194677,[-0.38055555555555554],[0.48055555555555557],[1],[0],[0],[1.4275617000002967],['target'],298441,1,2023-09-28_15h58.46.010,psychopy project 3,2023.1.3,60.00124803
68,0,68,0,5,117.9691676,117.9691676,0.0098892,[-0.05462962962962963],[-0.42314814814814816],[1],[0],[0],[1.5714619999998831],['target'],298441,1,2023-09-28_15h58.46.010,psychopy project 3,2023.1.3,60.00124803
69,0,69,0,10,119.5639717,119.5639717,0.0183566,[0.3592592592592593],[-0.1111111111111111],[1],[0],[0],[1.5471460999997362],['target'],298441,1,2023-09-28_15h58.46.010,psychopy project 3,2023.1.3,60.00124803
70,0,70,0,5,121.1259817,121.1259817,0.0132403,[-0.08425925925925926],[0.28055555555555556],[1],[0],[0],[1.4162233000006381],['target'],298441,1,2023-09-28_15h58.46.010,psychopy project 3,2023.1.3,60.00124803
71,0,71,0,5,122.5601491,122.5601491,0.0121139,[-0.4222222222222222],[0.13148148148148148],[1],[0],[0],[1.148423399999956],['target'],298441,1,2023-09-28_15h58.46.010,psychopy project 3,2023.1.3,60.00124803
72,0,72,0,10,123.7347029,123.7347029,0.019112,[0.31666666666666665],[-0.4398148148148148],[1],[0],[0],[3.4614579000008234],[],298441,1,2023-09-28_15h58.46.010,psychopy project 3,2023.1.3,60.00124803
73,0,73,0,5,127.2052143,127.2052143,0.0094287,[0.20462962962962963],[0.2722222222222222],[1],[0],[0],[1.455880999999863],['target'],298441,1,2023-09-28_15h58.46.010,psychopy project 3,2023.1.3,60.00124803
74,0,74,0,10,128.6839483,128.6839483,0.018363,[0.03611111111111111],[0.21481481481481482],[1],[0],[0],[1.178227500000503],['target'],298441,1,2023-09-28_15h58.46.010,psychopy project 3,2023.1.3,60.00124803
75,0,75,0,5,129.8725953,129.8725953,0.0094205,[0.3527777777777778],[0.17592592592592593],[1],[0],[0],[1.2888315000000148],[],298441,1,2023-09-28_15h58.46.010,psychopy project 3,2023.1.3,60.00124803
76,0,76,0,5,131.1749153,131.1749153,0.0096114,[-0.4648148148148148],[-0.44074074074074077],[1],[0],[0],[2.3211959000000206],['target'],298441,1,2023-09-28_15h58.46.010,psychopy project 3,2023.1.3,60.00124803
77,0,77,0,10,133.5181739,133.5181739,0.018224,[0.11851851851851852],[0.28888888888888886],[1],[0],[0],[1.396328299999368],['target'],298441,1,2023-09-28_15h58.46.010,psychopy project 3,2023.1.3,60.00124803
78,0,78,0,10,134.9408051,134.9408051,0.0216124,[0.4083333333333333],[0.16296296296296298],[1],[0],[0],[1.6916930000006687],['target'],298441,1,2023-09-28_15h58.46.010,psychopy project 3,2023.1.3,60.00124803
79,0,79,0,5,136.6446611,136.6446611,0.0118158,[0.17685185185185184],[-0.4351851851851852],[1],[0],[0],[1.6354111000000557],['target'],298441,1,2023-09-28_15h58.46.010,psychopy project 3,2023.1.3,60.00124803
80,0,80,0,5,138.2945865,138.2945865,0.010309,[0.4787037037037037],[0.29074074074074074],[1],[0],[0],[1.3031595000011293],['target'],298441,1,2023-09-28_15h58.46.010,psychopy project 3,2023.1.3,60.00124803
81,0,81,0,10,139.6204068,139.6204068,0.0182038,[0.2111111111111111],[-0.03888888888888889],[1],[0],[0],[1.1292438000000402],['target'],298441,1,2023-09-28_15h58.46.010,psychopy project 3,2023.1.3,60.00124803
82,0,82,0,5,140.7598418,140.7598418,0.0093641,[0.4888888888888889],[0.2574074074074074],[1],[0],[0],[1.0725511999989976],['target'],298441,1,2023-09-28_15h58.46.010,psychopy project 3,2023.1.3,60.00124803
83,0,83,0,5,141.8522577,141.8522577,0.015436,[-0.42407407407407405],[0.4148148148148148],[1],[0],[0],[1.5991813000000548],['target'],298441,1,2023-09-28_15h58.46.010,psychopy project 3,2023.1.3,60.00124803
84,0,84,0,5,143.4666408,143.4666408,0.011229,[0.001851851851851852],[-0.13148148148148148],[1],[0],[0],[1.4666258999986894],[],298441,1,2023-09-28_15h58.46.010,psychopy project 3,2023.1.3,60.00124803
85,0,85,0,10,144.9648345,144.9648345,0.0238659,[-0.2777777777777778],[-0.4305555555555556],[1],[0],[0],[1.6877879999992729],['target'],298441,1,2023-09-28_15h58.46.010,psychopy project 3,2023.1.3,60.00124803
86,0,86,0,10,146.6732518,146.6732518,0.0187236,[0.10092592592592593],[0.22592592592592592],[1],[0],[0],[1.2959162999995897],['target'],298441,1,2023-09-28_15h58.46.010,psychopy project 3,2023.1.3,60.00124803
87,0,87,0,5,147.9853232,147.9853232,0.0138104,[-0.030555555555555555],[0.09259259259259259],[1],[0],[0],[1.2847259000009217],['target'],298441,1,2023-09-28_15h58.46.010,psychopy project 3,2023.1.3,60.00124803
88,0,88,0,10,149.2910859,149.2910859,0.0181789,[0.13518518518518519],[0.26666666666666666],[1],[0],[0],[1.0790575999999419],['target'],298441,1,2023-09-28_15h58.46.010,psychopy project 3,2023.1.3,60.00124803
89,0,89,0,5,150.3850441,150.3850441,0.0143229,[-0.16666666666666666],[0.31666666666666665],[1],[0],[0],[1.2000381000016205],['target'],298441,1,2023-09-28_15h58.46.010,psychopy project 3,2023.1.3,60.00124803
90,0,90,0,5,151.6007929,151.6007929,0.0106407,[0.44166666666666665],[-0.46111111111111114],[1],[0],[0],[1.8363384999993286],['target'],298441,1,2023-09-28_15h58.46.010,psychopy project 3,2023.1.3,60.00124803
91,0,91,0,5,153.4494732,153.4494732,0.0096129,[0.36203703703703705],[-0.12685185185185185],[1],[0],[0],[1.6542128000000957],['target'],298441,1,2023-09-28_15h58.46.010,psychopy project 3,2023.1.3,60.00124803
92,0,92,0,10,155.1280711,155.1280711,0.0182851,[-0.1537037037037037],[-0.3851851851851852],[1],[0],[0],[1.4275706999997055],['target'],298441,1,2023-09-28_15h58.46.010,psychopy project 3,2023.1.3,60.00124803
93,0,93,0,10,156.5779227,156.5779227,0.0182518,[-0.30925925925925923],[-0.2564814814814815],[1],[0],[0],[1.9307597000006353],['target'],298441,1,2023-09-28_15h58.46.010,psychopy project 3,2023.1.3,60.00124803
94,0,94,0,10,158.5297121,158.5297121,0.0190018,[-0.2722222222222222],[0.38333333333333336],[1],[0],[0],[2.1773095999997167],['target'],298441,1,2023-09-28_15h58.46.010,psychopy project 3,2023.1.3,60.00124803
95,0,95,0,10,160.7281052,160.7281052,0.0183401,[-0.34629629629629627],[0.04722222222222222],[1],[0],[0],[1.479392100000041],['target'],298441,1,2023-09-28_15h58.46.010,psychopy project 3,2023.1.3,60.00124803
96,0,96,0,5,162.2187475,162.2187475,0.0099657,[-0.4064814814814815],[0.1259259259259259],[1],[0],[0],[0.9224610999990546],['target'],298441,1,2023-09-28_15h58.46.010,psychopy project 3,2023.1.3,60.00124803
97,0,97,0,5,163.1549223,163.1549223,0.0102638,[0.24259259259259258],[0.40185185185185185],[1],[0],[0],[1.4185161999994307],['target'],298441,1,2023-09-28_15h58.46.010,psychopy project 3,2023.1.3,60.00124803
98,0,98,0,5,164.5869548,164.5869548,0.0098305,[-0.125],[-0.2],[1],[0],[0],[1.504282300000341],['target'],298441,1,2023-09-28_15h58.46.010,psychopy project 3,2023.1.3,60.00124803
99,0,99,0,10,166.1140465,166.1140465,0.0185007,[-0.062037037037037036],[0.10648148148148148],[1],[0],[0],[1.2454953000014939],['target'],298441,1,2023-09-28_15h58.46.010,psychopy project 3,2023.1.3,60.00124803
100,0,100,0,5,167.3705455,167.3705455,0.0095435,[-0.04814814814814815],[0.15833333333333333],[1],[0],[0],[0.9718050999999832],['target'],298441,1,2023-09-28_15h58.46.010,psychopy project 3,2023.1.3,60.00124803
101,0,101,0,5,168.3561286,168.3561286,0.0103066,[0.33425925925925926],[-0.03148148148148148],[1],[0],[0],[1.520249100000001],['target'],298441,1,2023-09-28_15h58.46.010,psychopy project 3,2023.1.3,60.00124803
102,0,102,0,5,169.8889877,169.8889877,0.0096304,[0.30648148148148147],[0.18796296296296297],[1],[0],[0],[1.120224499998585],['target'],298441,1,2023-09-28_15h58.46.010,psychopy project 3,2023.1.3,60.00124803
103,0,103,0,10,171.0325167,171.0325167,0.0183187,[0.3388888888888889],[-0.03148148148148148],[1],[0],[0],[1.3962179999998625],['target'],298441,1,2023-09-28_15h58.46.010,psychopy project 3,2023.1.3,60.00124803
104,0,104,0,5,172.4396989,172.4396989,0.0098788,[-0.35833333333333334],[-0.4185185185185185],[1],[0],[0],[1.788007800001651],['target'],298441,1,2023-09-28_15h58.46.010,psychopy project 3,2023.1.3,60.00124803
105,0,105,0,5,174.2426419,174.2426419,0.0124085,[0.2962962962962963],[-0.024074074074074074],[1],[0],[0],[1.718074099999285],['target'],298441,1,2023-09-28_15h58.46.010,psychopy project 3,2023.1.3,60.00124803
106,0,106,0,5,175.9747071,175.9747071,0.0098032,[-0.36574074074074076],[0.030555555555555555],[1],[0],[0],[1.3715353999996296],['target'],298441,1,2023-09-28_15h58.46.010,psychopy project 3,2023.1.3,60.00124803
107,0,107,0,5,177.3609214,177.3609214,0.0104579,[-0.3574074074074074],[0.11574074074074074],[1],[0],[0],[1.0015985000009096],['target'],298441,1,2023-09-28_15h58.46.010,psychopy project 3,2023.1.3,60.00124803
108,0,108,0,10,178.3861229,178.3861229,0.0189795,[0.14351851851851852],[0.4222222222222222],[1],[0],[0],[1.3280589999994845],['target'],298441,1,2023-09-28_15h58.46.010,psychopy project 3,2023.1.3,60.00124803
109,0,109,0,10,179.7434446,179.7434446,0.0238355,[-0.023148148148148147],[-0.23981481481481481],[1],[0],[0],[1.5243107999995118],['target'],298441,1,2023-09-28_15h58.46.010,psychopy project 3,2023.1.3,60.00124803
110,0,110,0,10,181.2929455,181.2929455,0.0239824,[-0.14814814814814814],[0.1287037037037037],[1],[0],[0],[1.2405096000002231],['target'],298441,1,2023-09-28_15h58.46.010,psychopy project 3,2023.1.3,60.00124803
111,0,111,0,10,182.5552914,182.5552914,0.0177748,[0.037037037037037035],[-0.37777777777777777],[1],[0],[0],[1.2136652000008326],['target'],298441,1,2023-09-28_15h58.46.010,psychopy project 3,2023.1.3,60.00124803
112,0,112,0,10,183.7882106,183.7882106,0.019922,[0.4685185185185185],[0.21944444444444444],[1],[0],[0],[1.9616779000007227],['target'],298441,1,2023-09-28_15h58.46.010,psychopy project 3,2023.1.3,60.00124803
113,0,113,0,10,185.7711437,185.7711437,0.0185622,[-0.4703703703703704],[0.48055555555555557],[1],[0],[0],[1.729949200000192],['target'],298441,1,2023-09-28_15h58.46.010,psychopy project 3,2023.1.3,60.00124803
114,0,114,0,5,187.5150442,187.5150442,0.0119878,[0.20555555555555555],[-0.3194444444444444],[1],[0],[0],[1.73418700000002],['target'],298441,1,2023-09-28_15h58.46.010,psychopy project 3,2023.1.3,60.00124803
115,0,115,0,10,189.2744008,189.2744008,0.0186309,[0.26296296296296295],[0.5],[1],[0],[0],[1.8792874999999185],['target'],298441,1,2023-09-28_15h58.46.010,psychopy project 3,2023.1.3,60.00124803
116,0,116,0,10,191.1811823,191.1811823,0.023026,[-0.1962962962962963],[0.14907407407407408],[1],[0],[0],[1.4064675999998144],['target'],298441,1,2023-09-28_15h58.46.010,psychopy project 3,2023.1.3,60.00124803
117,0,117,0,5,192.5989691,192.5989691,0.010048,[0.044444444444444446],[-0.20185185185185187],[1],[0],[0],[1.220516100000168],['target'],298441,1,2023-09-28_15h58.46.010,psychopy project 3,2023.1.3,60.00124803
118,0,118,0,5,193.831299,193.831299,0.0095862,[0.09444444444444444],[0.3787037037037037],[1],[0],[0],[1.2874286999995093],['target'],298441,1,2023-09-28_15h58.46.010,psychopy project 3,2023.1.3,60.00124803
119,0,119,0,10,195.1429244,195.1429244,0.0184707,[-0.4361111111111111],[0.3037037037037037],[1],[0],[0],[1.54571229999965],['target'],298441,1,2023-09-28_15h58.46.010,psychopy project 3,2023.1.3,60.00124803
120,0,120,0,10,196.7127319,196.7127319,0.0221033,[-0.27870370370370373],[-0.3888888888888889],[1],[0],[0],[1.7263404999994236],['target'],298441,1,2023-09-28_15h58.46.010,psychopy project 3,2023.1.3,60.00124803
121,0,121,0,10,198.4596929,198.4596929,0.0182794,[-0.35],[0.3731481481481482],[1],[0],[0],[1.31281669999953],['target'],298441,1,2023-09-28_15h58.46.010,psychopy project 3,2023.1.3,60.00124803
122,0,122,0,10,199.7924686,199.7924686,0.0182062,[-0.06481481481481481],[-0.29259259259259257],[1],[0],[0],[1.530816500000583],['target'],298441,1,2023-09-28_15h58.46.010,psychopy project 3,2023.1.3,60.00124803
123,0,123,0,5,201.3354357,201.3354357,0.0098883,[-0.40925925925925927],[0.24259259259259258],[1],[0],[0],[1.3367111000006844],['target'],298441,1,2023-09-28_15h58.46.010,psychopy project 3,2023.1.3,60.00124803
124,0,124,0,10,202.6947152,202.6947152,0.0181275,[-0.1398148148148148],[0.4546296296296296],[1],[0],[0],[1.4292824000003748],['target'],298441,1,2023-09-28_15h58.46.010,psychopy project 3,2023.1.3,60.00124803
125,0,125,0,5,204.1349726,204.1349726,0.010275,[-0.4009259259259259],[-0.34074074074074073],[1],[0],[0],[1.8882212000007712],['target'],298441,1,2023-09-28_15h58.46.010,psychopy project 3,2023.1.3,60.00124803
126,0,126,0,10,206.051543,206.051543,0.0234628,[0.375],[0.3212962962962963],[1],[0],[0],[1.2747660000004544],['target'],298441,1,2023-09-28_15h58.46.010,psychopy project 3,2023.1.3,60.00124803
127,0,127,0,5,207.3344714,207.3344714,0.0092661,[-0.4101851851851852],[-0.058333333333333334],[1],[0],[0],[1.6894819000008283],['target'],298441,1,2023-09-28_15h58.46.010,psychopy project 3,2023.1.3,60.00124803
128,0,128,0,10,209.0467306,209.0467306,0.0183847,[0.1685185185185185],[0.2537037037037037],[1],[0],[0],[1.4798492000008991],['target'],298441,1,2023-09-28_15h58.46.010,psychopy project 3,2023.1.3,60.00124803
129,0,129,0,5,210.537095,210.537095,0.0097481,[-0.14722222222222223],[-0.23425925925925925],[1],[0],[0],[1.6049543999997695],['target'],298441,1,2023-09-28_15h58.46.010,psychopy project 3,2023.1.3,60.00124803
130,0,130,0,5,212.1560578,212.1560578,0.010145,[0.3537037037037037],[0.04351851851851852],[1],[0],[0],[1.1037458999999217],['target'],298441,1,2023-09-28_15h58.46.010,psychopy project 3,2023.1.3,60.00124803
131,0,131,0,10,213.2820026,213.2820026,0.0185038,[0.41759259259259257],[0.3814814814814815],[1],[0],[0],[1.7121929000004457],['target'],298441,1,2023-09-28_15h58.46.010,psychopy project 3,2023.1.3,60.00124803
132,0,132,0,5,215.0054971,215.0054971,0.0101062,[-0.12407407407407407],[0.1574074074074074],[1],[0],[0],[1.4879080999999132],['target'],298441,1,2023-09-28_15h58.46.010,psychopy project 3,2023.1.3,60.00124803
133,0,133,0,10,216.5167828,216.5167828,0.0185782,[0.18703703703703703],[0.1527777777777778],[1],[0],[0],[1.2957094000012148],['target'],298441,1,2023-09-28_15h58.46.010,psychopy project 3,2023.1.3,60.00124803
134,0,134,0,10,217.8327599,217.8327599,0.017921,[0.11851851851851852],[0.011111111111111112],[1],[0],[0],[1.4300449999991542],['target'],298441,1,2023-09-28_15h58.46.010,psychopy project 3,2023.1.3,60.00124803
135,0,135,0,10,219.2835823,219.2835823,0.0184579,[0.2101851851851852],[-0.46574074074074073],[1],[0],[0],[1.9314407000001665],['target'],298441,1,2023-09-28_15h58.46.010,psychopy project 3,2023.1.3,60.00124803
136,0,136,0,5,221.2298396,221.2298396,0.0124768,[0.39814814814814814],[0.10925925925925926],[1],[0],[0],[1.1995451999991928],['target'],298441,1,2023-09-28_15h58.46.010,psychopy project 3,2023.1.3,60.00124803
137,0,137,0,5,222.4457064,222.4457064,0.0117548,[-0.15462962962962962],[0.2972222222222222],[1],[0],[0],[1.4829453999991529],['target'],298441,1,2023-09-28_15h58.46.010,psychopy project 3,2023.1.3,60.00124803
138,0,138,0,10,223.9536941,223.9536941,0.0184517,[-0.27870370370370373],[0.3861111111111111],[1],[0],[0],[1.2291592000001401],['target'],298441,1,2023-09-28_15h58.46.010,psychopy project 3,2023.1.3,60.00124803
139,0,139,0,10,225.2025122,225.2025122,0.0182329,[-0.25277777777777777],[0.38333333333333336],[1],[0],[0],[1.0625631000002613],['target'],298441,1,2023-09-28_15h58.46.010,psychopy project 3,2023.1.3,60.00124803
140,0,140,0,5,226.2762254,226.2762254,0.009523,[-0.08981481481481482],[0.37222222222222223],[1],[0],[0],[1.104670000000624],['target'],298441,1,2023-09-28_15h58.46.010,psychopy project 3,2023.1.3,60.00124803
141,0,141,0,5,227.3943643,227.3943643,0.0098601,[0.24074074074074073],[0.26296296296296295],[1],[0],[0],[1.3881837999997515],['target'],298441,1,2023-09-28_15h58.46.010,psychopy project 3,2023.1.3,60.00124803
142,0,142,0,5,228.7949286,228.7949286,0.0096148,[-0.040740740740740744],[-0.07222222222222222],[1],[0],[0],[1.4875033999996958],['target'],298441,1,2023-09-28_15h58.46.010,psychopy project 3,2023.1.3,60.00124803
143,0,143,0,10,230.3123018,230.3123018,0.0209488,[0.07407407407407407],[0.44074074074074077],[1],[0],[0],[1.5422214999998687],['target'],298441,1,2023-09-28_15h58.46.010,psychopy project 3,2023.1.3,60.00124803
144,0,144,0,10,231.8740096,231.8740096,0.0205025,[0.014814814814814815],[0.05648148148148148],[1],[0],[0],[1.8940919999986363],['target'],298441,1,2023-09-28_15h58.46.010,psychopy project 3,2023.1.3,60.00124803
145,0,145,0,10,233.7912119,233.7912119,0.0201914,[-0.26666666666666666],[0.20092592592592592],[1],[0],[0],[0.944638600001781],['target'],298441,1,2023-09-28_15h58.46.010,psychopy project 3,2023.1.3,60.00124803
146,0,146,0,5,234.7454869,234.7454869,0.0092693,[0.2111111111111111],[0.4203703703703704],[1],[0],[0],[1.2891722999993362],['target'],298441,1,2023-09-28_15h58.46.010,psychopy project 3,2023.1.3,60.00124803
147,0,147,0,5,236.0489204,236.0489204,0.0110061,[0.37222222222222223],[-0.3574074074074074],[1],[0],[0],[1.436388199999783],['target'],298441,1,2023-09-28_15h58.46.010,psychopy project 3,2023.1.3,60.00124803
148,0,148,0,10,237.5120087,237.5120087,0.0185066,[0.12962962962962962],[0.39351851851851855],[1],[0],[0],[1.3759501000004093],['target'],298441,1,2023-09-28_15h58.46.010,psychopy project 3,2023.1.3,60.00124803
149,0,149,0,10,238.9081081,238.9081081,0.0184548,[-0.3194444444444444],[-0.17222222222222222],[1],[0],[0],[1.7126673000002484],['target'],298441,1,2023-09-28_15h58.46.010,psychopy project 3,2023.1.3,60.00124803
150,0,150,0,10,240.6417537,240.6417537,0.018532,[0.43796296296296294],[-0.2601851851851852],[1],[0],[0],[1.3299877999997989],['target'],298441,1,2023-09-28_15h58.46.010,psychopy project 3,2023.1.3,60.00124803
151,0,151,0,10,241.9930889,241.9930889,0.0183579,[-0.45092592592592595],[0.44166666666666665],[1],[0],[0],[1.7966808999990462],['target'],298441,1,2023-09-28_15h58.46.010,psychopy project 3,2023.1.3,60.00124803
152,0,152,0,10,243.817246,243.817246,0.0239492,[-0.45555555555555555],[0.4638888888888889],[1],[0],[0],[1.2063065000002098],['target'],298441,1,2023-09-28_15h58.46.010,psychopy project 3,2023.1.3,60.00124803
153,0,153,0,5,245.0327008,245.0327008,0.0094098,[0.2175925925925926],[0.041666666666666664],[1],[0],[0],[1.7393410999993648],['target'],298441,1,2023-09-28_15h58.46.010,psychopy project 3,2023.1.3,60.00124803
154,0,154,0,10,246.797376,246.797376,0.0201071,[0.3712962962962963],[-0.45185185185185184],[1],[0],[0],[1.3595669000005728],['target'],298441,1,2023-09-28_15h58.46.010,psychopy project 3,2023.1.3,60.00124803
155,0,155,0,5,248.1677034,248.1677034,0.0094724,[-0.1425925925925926],[-0.34074074074074073],[1],[0],[0],[1.7893133999987185],['target'],298441,1,2023-09-28_15h58.46.010,psychopy project 3,2023.1.3,60.00124803
156,0,156,0,5,249.9691797,249.9691797,0.0099174,[-0.2796296296296296],[0.03888888888888889],[1],[0],[0],[1.0870438999991165],['target'],298441,1,2023-09-28_15h58.46.010,psychopy project 3,2023.1.3,60.00124803
157,0,157,0,10,251.0811099,251.0811099,0.018823,[-0.09722222222222222],[0.10277777777777777],[1],[0],[0],[1.1619786999999633],['target'],298441,1,2023-09-28_15h58.46.010,psychopy project 3,2023.1.3,60.00124803
158,0,158,0,10,252.2657289,252.2657289,0.019055,[0.23333333333333334],[0.23796296296296296],[1],[0],[0],[2.1444418000010046],['target'],298441,1,2023-09-28_15h58.46.010,psychopy project 3,2023.1.3,60.00124803
159,0,159,0,10,254.4322251,254.4322251,0.0185418,[0.15648148148148147],[-0.4185185185185185],[1],[0],[0],[1.7113921999989543],['target'],298441,1,2023-09-28_15h58.46.010,psychopy project 3,2023.1.3,60.00124803
160,0,160,0,10,256.163609,256.163609,0.0181168,[0.06481481481481481],[-0.2740740740740741],[1],[0],[0],[1.1800555999998323],['target'],298441,1,2023-09-28_15h58.46.010,psychopy project 3,2023.1.3,60.00124803
161,0,161,0,5,257.3536464,257.3536464,0.0093925,[0.006481481481481481],[0.36666666666666664],[1],[0],[0],[1.3724302999999054],['target'],298441,1,2023-09-28_15h58.46.010,psychopy project 3,2023.1.3,60.00124803
162,0,162,0,5,258.7397712,258.7397712,0.010014,[-0.45185185185185184],[-0.2175925925925926],[1],[0],[0],[2.1550521999997727],['target'],298441,1,2023-09-28_15h58.46.010,psychopy project 3,2023.1.3,60.00124803
163,0,163,0,5,260.9086009,260.9086009,0.0110773,[-0.22592592592592592],[-0.21296296296296297],[1],[0],[0],[1.3516700999989553],['target'],298441,1,2023-09-28_15h58.46.010,psychopy project 3,2023.1.3,60.00124803
164,0,164,0,5,262.2740001,262.2740001,0.0097719,[0.49537037037037035],[-0.08333333333333333],[1],[0],[0],[2.1542640999996365],['target'],298441,1,2023-09-28_15h58.46.010,psychopy project 3,2023.1.3,60.00124803
165,0,165,0,10,264.4568317,264.4568317,0.0232552,[-0.11851851851851852],[0.04259259259259259],[1],[0],[0],[1.3066296999986662],['target'],298441,1,2023-09-28_15h58.46.010,psychopy project 3,2023.1.3,60.00124803
166,0,166,0,10,265.784074,265.784074,0.0184793,[-0.0824074074074074],[0.16018518518518518],[1],[0],[0],[1.1799871000002895],['target'],298441,1,2023-09-28_15h58.46.010,psychopy project 3,2023.1.3,60.00124803
167,0,167,0,5,266.9748449,266.9748449,0.0098548,[0.37407407407407406],[0.35555555555555557],[1],[0],[0],[1.722214299999905],['target'],298441,1,2023-09-28_15h58.46.010,psychopy project 3,2023.1.3,60.00124803
168,0,168,0,5,268.7095843,268.7095843,0.0098215,[0.43148148148148147],[-0.10555555555555556],[1],[0],[0],[1.5213621000002604],['target'],298441,1,2023-09-28_15h58.46.010,psychopy project 3,2023.1.3,60.00124803
169,0,169,0,5,270.2443463,270.2443463,0.0098672,[0.42407407407407405],[0.4583333333333333],[1],[0],[0],[1.2210594999996829],['target'],298441,1,2023-09-28_15h58.46.010,psychopy project 3,2023.1.3,60.00124803
170,0,170,0,10,271.4905361,271.4905361,0.0186989,[0.05740740740740741],[0.1361111111111111],[1],[0],[0],[1.4443862999996782],['target'],298441,1,2023-09-28_15h58.46.010,psychopy project 3,2023.1.3,60.00124803
171,0,171,0,5,272.9451838,272.9451838,0.0100475,[0.4583333333333333],[0.007407407407407408],[1],[0],[0],[1.50323600000047],['target'],298441,1,2023-09-28_15h58.46.010,psychopy project 3,2023.1.3,60.00124803
172,0,172,0,5,274.4642907,274.4642907,0.0120227,[-0.09259259259259259],[0.1259259259259259],[1],[0],[0],[1.401307899999665],['target'],298441,1,2023-09-28_15h58.46.010,psychopy project 3,2023.1.3,60.00124803
173,0,173,0,5,275.878413,275.878413,0.0097579,[-0.49074074074074076],[0.3907407407407407],[1],[0],[0],[1.5219608999996126],['target'],298441,1,2023-09-28_15h58.46.010,psychopy project 3,2023.1.3,60.00124803
174,0,174,0,10,277.4234595,277.4234595,0.0182279,[0.1388888888888889],[0.3388888888888889],[1],[0],[0],[1.328970600001412],['target'],298441,1,2023-09-28_15h58.46.010,psychopy project 3,2023.1.3,60.00124803
175,0,175,0,5,278.7621161,278.7621161,0.0090889,[-0.31296296296296294],[0.45092592592592595],[1],[0],[0],[1.2736449000003631],['target'],298441,1,2023-09-28_15h58.46.010,psychopy project 3,2023.1.3,60.00124803
176,0,176,0,10,280.0648053,280.0648053,0.0227789,[-0.2101851851851852],[0.2361111111111111],[1],[0],[0],[1.155312099999719],['target'],298441,1,2023-09-28_15h58.46.010,psychopy project 3,2023.1.3,60.00124803
177,0,177,0,10,281.2423714,281.2423714,0.0188928,[0.032407407407407406],[-0.39814814814814814],[1],[0],[0],[1.6442046000011032],['target'],298441,1,2023-09-28_15h58.46.010,psychopy project 3,2023.1.3,60.00124803
178,0,178,0,10,282.9079412,282.9079412,0.0187769,[-0.3212962962962963],[-0.24444444444444444],[1],[0],[0],[1.7974002999999357],['target'],298441,1,2023-09-28_15h58.46.010,psychopy project 3,2023.1.3,60.00124803
179,0,179,0,10,284.7279948,284.7279948,0.0185443,[-0.42407407407407405],[0.023148148148148147],[1],[0],[0],[1.3446267999988777],['target'],298441,1,2023-09-28_15h58.46.010,psychopy project 3,2023.1.3,60.00124803
180,0,180,0,10,286.101573,286.101573,0.0229094,[0.26666666666666666],[-0.3824074074074074],[1],[0],[0],[1.5387098000010155],[],298441,1,2023-09-28_15h58.46.010,psychopy project 3,2023.1.3,60.00124803
181,0,181,0,10,287.6593621,287.6593621,0.0182557,[-0.4759259259259259],[-0.058333333333333334],[1],[0],[0],[1.229992200000197],['target'],298441,1,2023-09-28_15h58.46.010,psychopy project 3,2023.1.3,60.00124803
182,0,182,0,10,288.9100634,288.9100634,0.0181419,[0.19722222222222222],[-0.4064814814814815],[1],[0],[0],[1.5125081999995018],['target'],298441,1,2023-09-28_15h58.46.010,psychopy project 3,2023.1.3,60.00124803
183,0,183,0,10,290.4473238,290.4473238,0.021894,[0.3611111111111111],[0.35555555555555557],[1],[0],[0],[1.2097911999990174],[],298441,1,2023-09-28_15h58.46.010,psychopy project 3,2023.1.3,60.00124803
184,0,184,0,5,291.6688417,291.6688417,0.011293,[-0.23703703703703705],[0.48055555555555557],[1],[0],[0],[1.2871009999998932],['target'],298441,1,2023-09-28_15h58.46.010,psychopy project 3,2023.1.3,60.00124803
185,0,185,0,5,292.9703219,292.9703219,0.0115464,[-0.04537037037037037],[0.1287037037037037],[1],[0],[0],[1.469958099998621],['target'],298441,1,2023-09-28_15h58.46.010,psychopy project 3,2023.1.3,60.00124803
186,0,186,0,5,294.459063,294.459063,0.0153114,[0.39814814814814814],[0.45185185185185184],[1],[0],[0],[1.28052629999911],['target'],298441,1,2023-09-28_15h58.46.010,psychopy project 3,2023.1.3,60.00124803
187,0,187,0,5,295.7557593,295.7557593,0.0122387,[0.009259259259259259],[-0.37407407407407406],[1],[0],[0],[1.8173308999994333],['target'],298441,1,2023-09-28_15h58.46.010,psychopy project 3,2023.1.3,60.00124803
188,0,188,0,10,297.6089694,297.6089694,0.0299039,[-0.44166666666666665],[-0.3962962962962963],[1],[0],[0],[1.6680606999998417],['target'],298441,1,2023-09-28_15h58.46.010,psychopy project 3,2023.1.3,60.00124803
189,0,189,0,5,299.2861342,299.2861342,0.009573,[-0.4981481481481482],[0.12685185185185185],[1],[0],[0],[1.405580299999201],['target'],298441,1,2023-09-28_15h58.46.010,psychopy project 3,2023.1.3,60.00124803
190,0,190,0,5,300.7044335,300.7044335,0.0096464,[-0.34444444444444444],[0.4398148148148148],[1],[0],[0],[1.5056724999994913],['target'],298441,1,2023-09-28_15h58.46.010,psychopy project 3,2023.1.3,60.00124803
191,0,191,0,5,302.2274999,302.2274999,0.0134968,[-0.11018518518518519],[0.08425925925925926],[1],[0],[0],[1.281500799999776],['target'],298441,1,2023-09-28_15h58.46.010,psychopy project 3,2023.1.3,60.00124803
192,0,192,0,10,303.5327767,303.5327767,0.0188421,[0.07962962962962963],[-0.4148148148148148],[1],[0],[0],[1.4290356999990763],['target'],298441,1,2023-09-28_15h58.46.010,psychopy project 3,2023.1.3,60.00124803
193,0,193,0,5,304.9748931,304.9748931,0.010287,[-0.1287037037037037],[0.4203703703703704],[1],[0],[0],[1.803803999999218],['target'],298441,1,2023-09-28_15h58.46.010,psychopy project 3,2023.1.3,60.00124803
194,0,194,0,5,306.8001906,306.8001906,0.0168266,[0.11574074074074074],[-0.35462962962962963],[1],[0],[0],[1.5793063000000984],['target'],298441,1,2023-09-28_15h58.46.010,psychopy project 3,2023.1.3,60.00124803
195,0,195,0,5,308.3924771,308.3924771,0.0103273,[0.17685185185185184],[0.3851851851851852],[1],[0],[0],[1.4045924999991257],['target'],298441,1,2023-09-28_15h58.46.010,psychopy project 3,2023.1.3,60.00124803
196,0,196,0,10,309.8261191,309.8261191,0.0229084,[-0.29259259259259257],[-0.18981481481481483],[1],[0],[0],[1.2385711999995692],['target'],298441,1,2023-09-28_15h58.46.010,psychopy project 3,2023.1.3,60.00124803
197,0,197,0,5,311.0746985,311.0746985,0.0094258,[-0.014814814814814815],[0.12129629629629629],[1],[0],[0],[1.2393513999995776],['target'],298441,1,2023-09-28_15h58.46.010,psychopy project 3,2023.1.3,60.00124803
198,0,198,0,5,312.3275979,312.3275979,0.0107437,[-0.0824074074074074],[0.4537037037037037],[1],[0],[0],[1.3523150000000896],['target'],298441,1,2023-09-28_15h58.46.010,psychopy project 3,2023.1.3,60.00124803
199,0,199,0,5,313.6943341,313.6943341,0.0100417,[-0.20462962962962963],[0.34629629629629627],[1],[0],[0],[1.1370083999991039],['target'],298441,1,2023-09-28_15h58.46.010,psychopy project 3,2023.1.3,60.00124803
